PARTICIPANT_ID,EXPERIMENT_STARTED,PC_NAME,TRIALS,EMS_NUMBER,AGE,VISION,DEBRIEFING,RANK,IS_THREATENING,SPATIAL_FREQUENCY,CONTRAST-NORMALIZATION,IMG_NAME,MASK_NAME,KEY_PRESSED,CORRECT_ANSWER,REACTION_TIME_IN_MILLIES,EST_DISPLAY_TIME
88,20/03/2021 21:30:48,PC_1,100,45,56,X,Y,0,threatening,LSF,no-normalization,wesp 13_LSF_unnorm,/mask044.png,s,True,649.458,524.37
88,20/03/2021 21:30:48,PC_1,100,45,56,X,Y,1,threatening,LSF,contrast-normalized,slang 12_LSF_norm,/mask031.png,s,True,528.37,499.167
88,20/03/2021 21:30:48,PC_1,100,45,56,X,Y,2,threatening,LSF,no-normalization,Slang 1_LSF_unnorm,/mask043.png,s,True,494.336,500.065
88,20/03/2021 21:30:48,PC_1,100,45,56,X,Y,3,non-threatening,NoFilter,contrast-normalized,salamander 9_FS_norm,/mask085.png,l,True,589.415,499.838
88,20/03/2021 21:30:48,PC_1,100,45,56,X,Y,4,non-threatening,LSF,no-normalization,vlieg 18_LSF_unnorm,/mask049.png,s,False,657.475,500.034
88,20/03/2021 21:30:48,PC_1,100,45,56,X,Y,5,non-threatening,LSF,contrast-normalized,salamander 1_LSF_norm,/mask061.png,l,True,361.243,499.72
88,20/03/2021 21:30:48,PC_1,100,45,56,X,Y,6,non-threatening,HSF,contrast-normalized,salamander 19_HSF_norm,/mask075.png,l,True,462.307,499.726
88,20/03/2021 21:30:48,PC_1,100,45,56,X,Y,7,non-threatening,HSF,contrast-normalized,salamander 13_HSF_norm,/mask071.png,l,True,440.298,499.945
88,20/03/2021 21:30:48,PC_1,100,45,56,X,Y,8,threatening,HSF,no-normalization,slang 20_HSF_unnorm,/mask060.png,l,False,433.306,500.018
88,20/03/2021 21:30:48,PC_1,100,45,56,X,Y,9,threatening,HSF,contrast-normalized,wesp 19_HSF_norm,/mask019.png,l,False,243.175,499.999
88,20/03/2021 21:30:48,PC_1,100,45,56,X,Y,10,threatening,NoFilter,contrast-normalized,wesp 26_FS_norm,/mask006.png,l,False,268.171,500.085
88,20/03/2021 21:30:48,PC_1,100,45,56,X,Y,11,non-threatening,LSF,contrast-normalized,vlieg 17_LSF_norm,/mask064.png,l,True,301.2,499.72
88,20/03/2021 21:30:48,PC_1,100,45,56,X,Y,12,non-threatening,LSF,no-normalization,salamander 23_LSF_unnorm,/mask078.png,l,True,380.256,500.512
88,20/03/2021 21:30:48,PC_1,100,45,56,X,Y,13,threatening,LSF,no-normalization,wesp 15_LSF_unnorm,/mask091.png,l,False,64.06,500.314
88,20/03/2021 21:30:48,PC_1,100,45,56,X,Y,14,threatening,HSF,no-normalization,Slang 5_HSF_unnorm,/mask094.png,l,False,449.302,499.747
88,20/03/2021 21:30:48,PC_1,100,45,56,X,Y,15,threatening,LSF,contrast-normalized,Slang 3_LSF_norm,/mask025.png,s,True,626.43,500.135
88,20/03/2021 21:30:48,PC_1,100,45,56,X,Y,16,threatening,NoFilter,contrast-normalized,Slang 2_FS_norm,/mask073.png,s,True,612.437,500.604
88,20/03/2021 21:30:48,PC_1,100,45,56,X,Y,17,non-threatening,HSF,no-normalization,salamander 5_HSF_unnorm,/mask028.png,s,False,855.616,499.883
88,20/03/2021 21:30:48,PC_1,100,45,56,X,Y,18,non-threatening,HSF,no-normalization,vlieg 29_HSF_unnorm,/mask017.png,s,False,471.32,500.363
88,20/03/2021 21:30:48,PC_1,100,45,56,X,Y,19,non-threatening,LSF,no-normalization,vlieg 13_LSF_unnorm,/mask003.png,l,True,312.208,499.187
88,20/03/2021 21:30:48,PC_1,100,45,56,X,Y,20,threatening,HSF,contrast-normalized,Slang 25_HSF_norm,/mask001.png,l,False,391.289,500.718
88,20/03/2021 21:30:48,PC_1,100,45,56,X,Y,21,non-threatening,NoFilter,contrast-normalized,salamander 25_FS_norm,/mask083.png,l,True,282.904,500.155
88,20/03/2021 21:30:48,PC_1,100,45,56,X,Y,22,non-threatening,HSF,no-normalization,vlieg 30_HSF_unnorm,/mask069.png,l,True,282.2,499.834
88,20/03/2021 21:30:48,PC_1,100,45,56,X,Y,23,threatening,LSF,contrast-normalized,Slang 7_LSF_norm,/mask020.png,s,True,371.261,500.284
88,20/03/2021 21:30:48,PC_1,100,45,56,X,Y,24,non-threatening,NoFilter,contrast-normalized,vlieg 15_FS_norm,/mask097.png,l,True,398.268,499.881
88,20/03/2021 21:30:48,PC_1,100,45,56,X,Y,25,non-threatening,HSF,no-normalization,salamander 18_HSF_unnorm,/mask009.png,l,True,384.982,499.257
88,20/03/2021 21:30:48,PC_1,100,45,56,X,Y,26,threatening,LSF,no-normalization,slang 14_LSF_unnorm,/mask023.png,s,True,172.134,500.324
88,20/03/2021 21:30:48,PC_1,100,45,56,X,Y,27,threatening,HSF,contrast-normalized,wesp 10_HSF_norm,/mask011.png,s,True,248.868,498.887
88,20/03/2021 21:30:48,PC_1,100,45,56,X,Y,28,threatening,LSF,no-normalization,slang 11_LSF_unnorm,/mask054.png,l,False,353.244,500.055
88,20/03/2021 21:30:48,PC_1,100,45,56,X,Y,29,non-threatening,LSF,no-normalization,vlieg 7_LSF_unnorm,/mask038.png,s,False,318.212,500.279
88,20/03/2021 21:30:48,PC_1,100,45,56,X,Y,30,threatening,NoFilter,contrast-normalized,slang 21_FS_norm,/mask035.png,s,True,260.183,500.794
88,20/03/2021 21:30:48,PC_1,100,45,56,X,Y,31,non-threatening,NoFilter,contrast-normalized,vlieg 24_FS_norm,/mask010.png,l,True,236.169,500.524
88,20/03/2021 21:30:48,PC_1,100,45,56,X,Y,32,threatening,LSF,no-normalization,Slang 4_LSF_unnorm,/mask008.png,s,True,430.29,500.489
88,20/03/2021 21:30:48,PC_1,100,45,56,X,Y,33,threatening,NoFilter,contrast-normalized,Slang 27_FS_norm,/mask063.png,s,True,65.757,500.482
88,20/03/2021 21:30:48,PC_1,100,45,56,X,Y,34,non-threatening,NoFilter,contrast-normalized,salamander 14_FS_norm,/mask030.png,l,True,561.401,499.618
88,20/03/2021 21:30:48,PC_1,100,45,56,X,Y,35,threatening,NoFilter,contrast-normalized,Slang 8_FS_norm,/mask088.png,s,True,446.32,500.691
88,20/03/2021 21:30:48,PC_1,100,45,56,X,Y,36,threatening,LSF,contrast-normalized,wesp 20_LSF_norm,/mask084.png,l,False,199.128,499.707
88,20/03/2021 21:30:48,PC_1,100,45,56,X,Y,37,threatening,LSF,contrast-normalized,slang 31_LSF_norm,/mask042.png,s,True,410.289,500.38
88,20/03/2021 21:30:48,PC_1,100,45,56,X,Y,38,threatening,HSF,contrast-normalized,slang 16_HSF_norm,/mask007.png,l,False,435.307,500.545
88,20/03/2021 21:30:48,PC_1,100,45,56,X,Y,39,non-threatening,LSF,no-normalization,salamander 22_LSF_unnorm,/mask056.png,s,False,373.263,500.47
88,20/03/2021 21:30:48,PC_1,100,45,56,X,Y,40,non-threatening,LSF,contrast-normalized,salamander 20_LSF_norm,/mask079.png,l,True,265.192,499.899
88,20/03/2021 21:30:48,PC_1,100,45,56,X,Y,41,non-threatening,LSF,no-normalization,vlieg 28_LSF_unnorm,/mask013.png,l,True,305.228,499.14
88,20/03/2021 21:30:48,PC_1,100,45,56,X,Y,42,non-threatening,LSF,no-normalization,salamander 4_LSF_unnorm,/mask093.png,l,True,384.273,500.509
88,20/03/2021 21:30:48,PC_1,100,45,56,X,Y,43,non-threatening,NoFilter,contrast-normalized,salamander 11_FS_norm,/mask046.png,l,True,467.316,500.485
88,20/03/2021 21:30:48,PC_1,100,45,56,X,Y,44,threatening,HSF,contrast-normalized,slang 29_HSF_norm,/mask004.png,l,False,460.343,499.931
88,20/03/2021 21:30:48,PC_1,100,45,56,X,Y,45,threatening,LSF,no-normalization,wesp 6_LSF_unnorm,/mask080.png,s,True,580.41,500.146
88,20/03/2021 21:30:48,PC_1,100,45,56,X,Y,46,non-threatening,LSF,no-normalization,salamander 15_LSF_unnorm,/mask022.png,l,True,176.112,500.132
88,20/03/2021 21:30:48,PC_1,100,45,56,X,Y,47,non-threatening,LSF,contrast-normalized,salamander 17_LSF_norm,/mask051.png,l,True,243.172,499.727
88,20/03/2021 21:30:48,PC_1,100,45,56,X,Y,48,threatening,LSF,contrast-normalized,Slang 10_LSF_norm,/mask039.png,l,False,245.161,499.02
88,20/03/2021 21:30:48,PC_1,100,45,56,X,Y,49,non-threatening,LSF,contrast-normalized,vlieg 25_LSF_norm,/mask098.png,l,True,174.127,499.649
88,20/03/2021 21:30:48,PC_1,100,45,56,X,Y,50,threatening,HSF,no-normalization,wesp 23_HSF_unnorm,/mask033.png,l,False,314.218,499.084
88,20/03/2021 21:30:48,PC_1,100,45,56,X,Y,51,threatening,HSF,no-normalization,wesp 24_HSF_unnorm,/mask032.png,l,False,673.475,500.036
88,20/03/2021 21:30:48,PC_1,100,45,56,X,Y,52,non-threatening,LSF,no-normalization,vlieg 23_LSF_unnorm,/mask000.png,l,True,289.209,499.817
88,20/03/2021 21:30:48,PC_1,100,45,56,X,Y,53,threatening,HSF,contrast-normalized,slang 28_HSF_norm,/mask005.png,l,False,64.045,500.14
88,20/03/2021 21:30:48,PC_1,100,45,56,X,Y,54,threatening,LSF,no-normalization,wesp 8_LSF_unnorm,/mask026.png,s,True,184.116,499.92
88,20/03/2021 21:30:48,PC_1,100,45,56,X,Y,55,threatening,HSF,no-normalization,slang 30_HSF_unnorm,/mask082.png,s,True,52.037,499.638
88,20/03/2021 21:30:48,PC_1,100,45,56,X,Y,56,non-threatening,NoFilter,contrast-normalized,vlieg 31_FS_norm,/mask074.png,l,True,460.342,499.483
88,20/03/2021 21:30:48,PC_1,100,45,56,X,Y,57,non-threatening,HSF,no-normalization,vlieg 12_HSF_unnorm,/mask021.png,l,True,669.459,499.637
88,20/03/2021 21:30:48,PC_1,100,45,56,X,Y,58,non-threatening,NoFilter,contrast-normalized,vlieg 19_FS_norm,/mask070.png,l,True,709.495,499.504
88,20/03/2021 21:30:48,PC_1,100,45,56,X,Y,59,threatening,HSF,contrast-normalized,wesp 25_HSF_norm,/mask045.png,l,False,435.297,500.411
88,20/03/2021 21:30:48,PC_1,100,45,56,X,Y,60,threatening,HSF,no-normalization,wesp 22_HSF_unnorm,/mask047.png,l,False,853.598,500.584
88,20/03/2021 21:30:48,PC_1,100,45,56,X,Y,61,threatening,LSF,contrast-normalized,wesp 5_LSF_norm,/mask067.png,s,True,510.343,500.401
88,20/03/2021 21:30:48,PC_1,100,45,56,X,Y,62,threatening,HSF,contrast-normalized,wesp 16_HSF_norm,/mask065.png,s,True,396.296,500.64
88,20/03/2021 21:30:48,PC_1,100,45,56,X,Y,63,threatening,NoFilter,contrast-normalized,wesp 4_FS_norm,/mask087.png,s,True,286.203,500.296
88,20/03/2021 21:30:48,PC_1,100,45,56,X,Y,64,non-threatening,HSF,no-normalization,vlieg 11_HSF_unnorm,/mask090.png,l,True,934.66,500.723
88,20/03/2021 21:30:48,PC_1,100,45,56,X,Y,65,threatening,HSF,contrast-normalized,Slang 6_HSF_norm,/mask086.png,l,False,531.362,499.582
88,20/03/2021 21:30:48,PC_1,100,45,56,X,Y,66,non-threatening,LSF,contrast-normalized,salamander 21_LSF_norm,/mask066.png,l,True,328.231,500.344
88,20/03/2021 21:30:48,PC_1,100,45,56,X,Y,67,non-threatening,HSF,contrast-normalized,vlieg 3_HSF_norm,/mask096.png,l,True,63.044,499.435
88,20/03/2021 21:30:48,PC_1,100,45,56,X,Y,68,non-threatening,HSF,contrast-normalized,vlieg 26_HSF_norm,/mask040.png,l,True,886.612,499.062
88,20/03/2021 21:30:48,PC_1,100,45,56,X,Y,69,threatening,HSF,no-normalization,Slang 22_HSF_unnorm,/mask029.png,l,False,486.347,500.525
88,20/03/2021 21:30:48,PC_1,100,45,56,X,Y,70,threatening,LSF,no-normalization,wesp 14_LSF_unnorm,/mask062.png,s,True,589.421,500.1
88,20/03/2021 21:30:48,PC_1,100,45,56,X,Y,71,non-threatening,NoFilter,contrast-normalized,vlieg 22_FS_norm,/mask037.png,l,True,312.233,499.355
88,20/03/2021 21:30:48,PC_1,100,45,56,X,Y,72,non-threatening,LSF,no-normalization,salamander 16_LSF_unnorm,/mask018.png,l,True,446.3,499.931
88,20/03/2021 21:30:48,PC_1,100,45,56,X,Y,73,threatening,NoFilter,contrast-normalized,wesp 28_FS_norm,/mask058.png,l,False,343.23,499.882
88,20/03/2021 21:30:48,PC_1,100,45,56,X,Y,74,threatening,NoFilter,contrast-normalized,wesp 7_FS_norm,/mask036.png,l,False,292.194,500.08
88,20/03/2021 21:30:48,PC_1,100,45,56,X,Y,75,non-threatening,HSF,contrast-normalized,vlieg 5_HSF_norm,/mask077.png,s,False,555.397,499.566
88,20/03/2021 21:30:48,PC_1,100,45,56,X,Y,76,threatening,LSF,contrast-normalized,hoornaar 2_LSF_norm,/mask041.png,l,False,312.207,500.924
88,20/03/2021 21:30:48,PC_1,100,45,56,X,Y,77,non-threatening,HSF,no-normalization,salamander 3_HSF_unnorm,/mask068.png,l,True,487.343,500.447
88,20/03/2021 21:30:48,PC_1,100,45,56,X,Y,78,non-threatening,LSF,contrast-normalized,vlieg 6_LSF_norm,/mask072.png,l,True,255.169,499.996
88,20/03/2021 21:30:48,PC_1,100,45,56,X,Y,79,non-threatening,HSF,contrast-normalized,salamander 27_HSF_norm,/mask057.png,l,True,319.213,500.021
88,20/03/2021 21:30:48,PC_1,100,45,56,X,Y,80,threatening,LSF,no-normalization,slang 13_LSF_unnorm,/mask050.png,l,False,102.071,499.953
88,20/03/2021 21:30:48,PC_1,100,45,56,X,Y,81,threatening,HSF,no-normalization,slang 17_HSF_unnorm,/mask099.png,l,False,572.421,500.749
88,20/03/2021 21:30:48,PC_1,100,45,56,X,Y,82,non-threatening,HSF,no-normalization,salamander 28_HSF_unnorm,/mask055.png,l,True,57.043,499.865
88,20/03/2021 21:30:48,PC_1,100,45,56,X,Y,83,non-threatening,HSF,contrast-normalized,salamander 26_HSF_norm,/mask053.png,l,True,41.029,499.183
88,20/03/2021 21:30:48,PC_1,100,45,56,X,Y,84,threatening,NoFilter,contrast-normalized,wesp 17_FS_norm,/mask024.png,l,False,930.643,499.4
88,20/03/2021 21:30:48,PC_1,100,45,56,X,Y,85,threatening,HSF,no-normalization,hoornaar 1_HSF_unnorm,/mask034.png,s,True,184.128,499.981
88,20/03/2021 21:30:48,PC_1,100,45,56,X,Y,86,non-threatening,LSF,contrast-normalized,vlieg 27_LSF_norm,/mask089.png,l,True,268.19,500.357
88,20/03/2021 21:30:48,PC_1,100,45,56,X,Y,87,non-threatening,LSF,contrast-normalized,salamander 24_LSF_norm,/mask014.png,l,True,27.018,499.375
88,20/03/2021 21:30:48,PC_1,100,45,56,X,Y,88,non-threatening,HSF,contrast-normalized,salamander 2_HSF_norm,/mask076.png,l,True,556.397,500.468
88,20/03/2021 21:30:48,PC_1,100,45,56,X,Y,89,non-threatening,HSF,contrast-normalized,vlieg 14_HSF_norm,/mask015.png,l,True,249.163,499.73
88,20/03/2021 21:30:48,PC_1,100,45,56,X,Y,90,non-threatening,NoFilter,contrast-normalized,salamander 7_FS_norm,/mask027.png,l,True,475.322,499.104
88,20/03/2021 21:30:48,PC_1,100,45,56,X,Y,91,threatening,HSF,no-normalization,wesp 18_HSF_unnorm,/mask016.png,l,False,155.097,499.668
88,20/03/2021 21:30:48,PC_1,100,45,56,X,Y,92,threatening,LSF,contrast-normalized,wesp 21_LSF_norm,/mask095.png,l,False,207.146,500.119
88,20/03/2021 21:30:48,PC_1,100,45,56,X,Y,93,threatening,NoFilter,contrast-normalized,slang 15_FS_norm,/mask002.png,s,True,849.582,499.71
88,20/03/2021 21:30:48,PC_1,100,45,56,X,Y,94,non-threatening,LSF,contrast-normalized,vlieg 20_LSF_norm,/mask059.png,s,False,514.362,500.299
88,20/03/2021 21:30:48,PC_1,100,45,56,X,Y,95,non-threatening,HSF,no-normalization,salamander 10_HSF_unnorm,/mask092.png,s,False,449.303,500.515
88,20/03/2021 21:30:48,PC_1,100,45,56,X,Y,96,threatening,LSF,contrast-normalized,wesp 27_LSF_norm,/mask081.png,s,True,394.253,499.532
88,20/03/2021 21:30:48,PC_1,100,45,56,X,Y,97,non-threatening,HSF,no-normalization,vlieg 16_HSF_unnorm,/mask048.png,l,True,550.401,500.662
88,20/03/2021 21:30:48,PC_1,100,45,56,X,Y,98,threatening,HSF,contrast-normalized,wesp 11_HSF_norm,/mask012.png,l,False,379.254,500.711
88,20/03/2021 21:30:48,PC_1,100,45,56,X,Y,99,non-threatening,HSF,contrast-normalized,vlieg 8_HSF_norm,/mask052.png,s,False,319.229,499.774
569,20/03/2021 21:55:21,PC_1,100,22,455,T,T,0,non-threatening,LSF,contrast-normalized,salamander 17_LSF_norm,/mask024.png,s,True,420.291,67.276
569,20/03/2021 21:55:21,PC_1,100,22,455,T,T,1,non-threatening,NoFilter,contrast-normalized,vlieg 5_FS_norm,/mask066.png,s,True,301.228,66.803
569,20/03/2021 21:55:21,PC_1,100,22,455,T,T,2,non-threatening,HSF,contrast-normalized,salamander 18_HSF_norm,/mask009.png,s,True,252.178,66.614
569,20/03/2021 21:55:21,PC_1,100,22,455,T,T,3,threatening,LSF,contrast-normalized,Slang 4_LSF_norm,/mask016.png,s,False,301.212,66.064
569,20/03/2021 21:55:21,PC_1,100,22,455,T,T,4,non-threatening,LSF,no-normalization,salamander 19_LSF_unnorm,/mask076.png,s,True,276.202,66.671
569,20/03/2021 21:55:21,PC_1,100,22,455,T,T,5,non-threatening,LSF,contrast-normalized,vlieg 26_LSF_norm,/mask091.png,s,True,228.143,66.001
569,20/03/2021 21:55:21,PC_1,100,22,455,T,T,6,threatening,HSF,no-normalization,slang 16_HSF_unnorm,/mask049.png,s,False,326.229,66.73
569,20/03/2021 21:55:21,PC_1,100,22,455,T,T,7,threatening,HSF,no-normalization,wesp 7_HSF_unnorm,/mask086.png,l,True,44.026,66.925
569,20/03/2021 21:55:21,PC_1,100,22,455,T,T,8,non-threatening,HSF,no-normalization,vlieg 22_HSF_unnorm,/mask087.png,s,True,286.22,67.15
569,20/03/2021 21:55:21,PC_1,100,22,455,T,T,9,threatening,NoFilter,contrast-normalized,Slang 7_FS_norm,/mask035.png,s,False,732.222,66.532
569,20/03/2021 21:55:21,PC_1,100,22,455,T,T,10,threatening,LSF,contrast-normalized,wesp 28_LSF_norm,/mask021.png,s,False,65.751,66.729
569,20/03/2021 21:55:21,PC_1,100,22,455,T,T,11,non-threatening,LSF,no-normalization,salamander 22_LSF_unnorm,/mask034.png,s,True,514.362,66.65
569,20/03/2021 21:55:21,PC_1,100,22,455,T,T,12,threatening,HSF,contrast-normalized,hoornaar 2_HSF_norm,/mask036.png,s,False,424.282,66.959
569,20/03/2021 21:55:21,PC_1,100,22,455,T,T,13,threatening,NoFilter,contrast-normalized,Slang 22_FS_norm,/mask054.png,s,False,282.217,66.299
569,20/03/2021 21:55:21,PC_1,100,22,455,T,T,14,threatening,LSF,no-normalization,slang 20_LSF_unnorm,/mask062.png,l,True,178.108,66.702
569,20/03/2021 21:55:21,PC_1,100,22,455,T,T,15,non-threatening,HSF,contrast-normalized,vlieg 28_HSF_norm,/mask080.png,l,False,245.173,66.387
569,20/03/2021 21:55:21,PC_1,100,22,455,T,T,16,threatening,HSF,contrast-normalized,wesp 18_HSF_norm,/mask043.png,l,True,765.54,66.74
569,20/03/2021 21:55:21,PC_1,100,22,455,T,T,17,non-threatening,NoFilter,contrast-normalized,salamander 25_FS_norm,/mask055.png,l,False,914.349,66.098
569,20/03/2021 21:55:21,PC_1,100,22,455,T,T,18,threatening,HSF,contrast-normalized,hoornaar 1_HSF_norm,/mask012.png,l,True,281.198,66.697
569,20/03/2021 21:55:21,PC_1,100,22,455,T,T,19,non-threatening,HSF,no-normalization,vlieg 12_HSF_unnorm,/mask064.png,l,False,545.399,67.035
569,20/03/2021 21:55:21,PC_1,100,22,455,T,T,20,threatening,HSF,no-normalization,Slang 27_HSF_unnorm,/mask063.png,l,True,350.67,66.683
569,20/03/2021 21:55:21,PC_1,100,22,455,T,T,21,threatening,NoFilter,contrast-normalized,wesp 10_FS_norm,/mask047.png,l,True,164.23,67.63
569,20/03/2021 21:55:21,PC_1,100,22,455,T,T,22,non-threatening,LSF,contrast-normalized,salamander 28_LSF_norm,/mask019.png,l,False,374.264,66.838
569,20/03/2021 21:55:21,PC_1,100,22,455,T,T,23,threatening,NoFilter,contrast-normalized,wesp 14_FS_norm,/mask074.png,l,True,745.948,66.839
569,20/03/2021 21:55:21,PC_1,100,22,455,T,T,24,threatening,HSF,contrast-normalized,wesp 4_HSF_norm,/mask042.png,l,True,270.891,66.254
569,20/03/2021 21:55:21,PC_1,100,22,455,T,T,25,threatening,HSF,no-normalization,wesp 16_HSF_unnorm,/mask026.png,l,True,439.123,66.63
569,20/03/2021 21:55:21,PC_1,100,22,455,T,T,26,non-threatening,HSF,contrast-normalized,salamander 4_HSF_norm,/mask004.png,l,False,688.305,67.105
569,20/03/2021 21:55:21,PC_1,100,22,455,T,T,27,threatening,HSF,contrast-normalized,Slang 6_HSF_norm,/mask085.png,l,True,103.072,67.397
569,20/03/2021 21:55:21,PC_1,100,22,455,T,T,28,non-threatening,NoFilter,contrast-normalized,salamander 1_FS_norm,/mask079.png,l,False,645.158,67.056
569,20/03/2021 21:55:21,PC_1,100,22,455,T,T,29,threatening,NoFilter,contrast-normalized,wesp 19_FS_norm,/mask025.png,l,True,205.833,66.423
569,20/03/2021 21:55:21,PC_1,100,22,455,T,T,30,non-threatening,HSF,no-normalization,vlieg 25_HSF_unnorm,/mask027.png,l,False,864.296,66.622
569,20/03/2021 21:55:21,PC_1,100,22,455,T,T,31,non-threatening,NoFilter,contrast-normalized,vlieg 23_FS_norm,/mask099.png,l,False,41.049,67.006
569,20/03/2021 21:55:21,PC_1,100,22,455,T,T,32,threatening,NoFilter,contrast-normalized,wesp 13_FS_norm,/mask010.png,l,True,434.301,66.704
569,20/03/2021 21:55:21,PC_1,100,22,455,T,T,33,threatening,LSF,no-normalization,slang 13_LSF_unnorm,/mask050.png,l,True,228.139,67.371
569,20/03/2021 21:55:21,PC_1,100,22,455,T,T,34,non-threatening,LSF,no-normalization,vlieg 27_LSF_unnorm,/mask051.png,l,False,62.044,67.181
569,20/03/2021 21:55:21,PC_1,100,22,455,T,T,35,non-threatening,LSF,contrast-normalized,vlieg 13_LSF_norm,/mask005.png,l,False,550.387,67.476
569,20/03/2021 21:55:21,PC_1,100,22,455,T,T,36,non-threatening,HSF,contrast-normalized,vlieg 15_HSF_norm,/mask039.png,l,False,299.212,67.047
569,20/03/2021 21:55:21,PC_1,100,22,455,T,T,37,non-threatening,HSF,no-normalization,salamander 11_HSF_unnorm,/mask020.png,l,False,314.204,66.625
569,20/03/2021 21:55:21,PC_1,100,22,455,T,T,38,non-threatening,LSF,no-normalization,vlieg 14_LSF_unnorm,/mask023.png,l,False,226.149,66.842
569,20/03/2021 21:55:21,PC_1,100,22,455,T,T,39,non-threatening,NoFilter,contrast-normalized,salamander 10_FS_norm,/mask031.png,l,False,347.245,66.977
569,20/03/2021 21:55:21,PC_1,100,22,455,T,T,40,threatening,NoFilter,contrast-normalized,slang 30_FS_norm,/mask032.png,l,True,264.168,66.848
569,20/03/2021 21:55:21,PC_1,100,22,455,T,T,41,non-threatening,HSF,no-normalization,salamander 16_HSF_unnorm,/mask067.png,l,False,169.12,66.749
569,20/03/2021 21:55:21,PC_1,100,22,455,T,T,42,threatening,LSF,contrast-normalized,Slang 3_LSF_norm,/mask007.png,l,True,293.202,66.55
569,20/03/2021 21:55:21,PC_1,100,22,455,T,T,43,threatening,HSF,no-normalization,slang 21_HSF_unnorm,/mask093.png,l,True,340.24,67.296
569,20/03/2021 21:55:21,PC_1,100,22,455,T,T,44,threatening,LSF,contrast-normalized,wesp 17_LSF_norm,/mask030.png,l,True,314.221,67.311
569,20/03/2021 21:55:21,PC_1,100,22,455,T,T,45,threatening,NoFilter,contrast-normalized,slang 17_FS_norm,/mask058.png,l,True,304.21,66.006
569,20/03/2021 21:55:21,PC_1,100,22,455,T,T,46,threatening,HSF,no-normalization,Slang 8_HSF_unnorm,/mask022.png,l,True,279.202,66.593
569,20/03/2021 21:55:21,PC_1,100,22,455,T,T,47,non-threatening,NoFilter,contrast-normalized,salamander 9_FS_norm,/mask070.png,l,False,295.215,66.717
569,20/03/2021 21:55:21,PC_1,100,22,455,T,T,48,non-threatening,NoFilter,contrast-normalized,vlieg 31_FS_norm,/mask018.png,l,False,342.254,66.301
569,20/03/2021 21:55:21,PC_1,100,22,455,T,T,49,threatening,HSF,no-normalization,wesp 11_HSF_unnorm,/mask084.png,l,True,419.291,66.581
569,20/03/2021 21:55:21,PC_1,100,22,455,T,T,50,non-threatening,LSF,contrast-normalized,salamander 27_LSF_norm,/mask038.png,l,False,310.22,66.731
569,20/03/2021 21:55:21,PC_1,100,22,455,T,T,51,threatening,LSF,no-normalization,Slang 1_LSF_unnorm,/mask052.png,l,True,452.321,66.408
569,20/03/2021 21:55:21,PC_1,100,22,455,T,T,52,threatening,HSF,contrast-normalized,Slang 2_HSF_norm,/mask097.png,l,True,277.212,66.742
569,20/03/2021 21:55:21,PC_1,100,22,455,T,T,53,non-threatening,NoFilter,contrast-normalized,salamander 3_FS_norm,/mask048.png,l,False,636.444,66.682
569,20/03/2021 21:55:21,PC_1,100,22,455,T,T,54,non-threatening,LSF,contrast-normalized,vlieg 6_LSF_norm,/mask014.png,l,False,679.464,66.544
569,20/03/2021 21:55:21,PC_1,100,22,455,T,T,55,threatening,HSF,contrast-normalized,wesp 5_HSF_norm,/mask033.png,l,True,135.096,66.233
569,20/03/2021 21:55:21,PC_1,100,22,455,T,T,56,threatening,LSF,no-normalization,slang 15_LSF_unnorm,/mask089.png,l,True,236.15,65.865
569,20/03/2021 21:55:21,PC_1,100,22,455,T,T,57,non-threatening,LSF,no-normalization,vlieg 19_LSF_unnorm,/mask078.png,l,False,237.185,66.48
569,20/03/2021 21:55:21,PC_1,100,22,455,T,T,58,threatening,LSF,no-normalization,slang 29_LSF_unnorm,/mask008.png,l,True,702.495,66.861
569,20/03/2021 21:55:21,PC_1,100,22,455,T,T,59,threatening,LSF,no-normalization,wesp 23_LSF_unnorm,/mask017.png,l,True,173.122,66.768
569,20/03/2021 21:55:21,PC_1,100,22,455,T,T,60,threatening,HSF,contrast-normalized,Slang 10_HSF_norm,/mask096.png,l,True,257.176,66.832
569,20/03/2021 21:55:21,PC_1,100,22,455,T,T,61,non-threatening,HSF,no-normalization,salamander 7_HSF_unnorm,/mask003.png,l,False,99.071,67.168
569,20/03/2021 21:55:21,PC_1,100,22,455,T,T,62,threatening,LSF,contrast-normalized,wesp 6_LSF_norm,/mask000.png,l,True,161.108,67.145
569,20/03/2021 21:55:21,PC_1,100,22,455,T,T,63,non-threatening,HSF,no-normalization,vlieg 17_HSF_unnorm,/mask059.png,l,False,302.195,66.707
569,20/03/2021 21:55:21,PC_1,100,22,455,T,T,64,non-threatening,LSF,contrast-normalized,salamander 24_LSF_norm,/mask098.png,l,False,148.105,67.461
569,20/03/2021 21:55:21,PC_1,100,22,455,T,T,65,threatening,LSF,contrast-normalized,slang 31_LSF_norm,/mask029.png,l,True,585.412,66.528
569,20/03/2021 21:55:21,PC_1,100,22,455,T,T,66,non-threatening,HSF,contrast-normalized,vlieg 20_HSF_norm,/mask088.png,l,False,404.279,66.569
569,20/03/2021 21:55:21,PC_1,100,22,455,T,T,67,threatening,LSF,contrast-normalized,wesp 15_LSF_norm,/mask002.png,l,True,815.262,66.828
569,20/03/2021 21:55:21,PC_1,100,22,455,T,T,68,non-threatening,NoFilter,contrast-normalized,vlieg 16_FS_norm,/mask081.png,l,False,530.078,66.565
569,20/03/2021 21:55:21,PC_1,100,22,455,T,T,69,non-threatening,LSF,contrast-normalized,vlieg 7_LSF_norm,/mask053.png,l,False,863.592,66.503
569,20/03/2021 21:55:21,PC_1,100,22,455,T,T,70,non-threatening,HSF,contrast-normalized,salamander 23_HSF_norm,/mask094.png,l,False,560.1,65.81
569,20/03/2021 21:55:21,PC_1,100,22,455,T,T,71,threatening,NoFilter,contrast-normalized,wesp 22_FS_norm,/mask061.png,l,True,348.258,66.473
569,20/03/2021 21:55:21,PC_1,100,22,455,T,T,72,threatening,LSF,contrast-normalized,slang 28_LSF_norm,/mask056.png,l,True,321.201,66.336
569,20/03/2021 21:55:21,PC_1,100,22,455,T,T,73,threatening,LSF,no-normalization,wesp 20_LSF_unnorm,/mask001.png,l,True,551.093,66.765
569,20/03/2021 21:55:21,PC_1,100,22,455,T,T,74,threatening,HSF,contrast-normalized,slang 12_HSF_norm,/mask011.png,l,True,36.448,66.784
569,20/03/2021 21:55:21,PC_1,100,22,455,T,T,75,non-threatening,HSF,contrast-normalized,vlieg 30_HSF_norm,/mask037.png,l,False,861.603,66.694
569,20/03/2021 21:55:21,PC_1,100,22,455,T,T,76,non-threatening,LSF,contrast-normalized,vlieg 24_LSF_norm,/mask077.png,l,False,942.665,66.765
569,20/03/2021 21:55:21,PC_1,100,22,455,T,T,77,non-threatening,HSF,contrast-normalized,vlieg 29_HSF_norm,/mask095.png,l,False,675.476,65.772
569,20/03/2021 21:55:21,PC_1,100,22,455,T,T,78,threatening,HSF,no-normalization,wesp 25_HSF_unnorm,/mask090.png,l,True,27.424,66.348
569,20/03/2021 21:55:21,PC_1,100,22,455,T,T,79,non-threatening,HSF,contrast-normalized,salamander 13_HSF_norm,/mask013.png,l,False,429.303,67.115
569,20/03/2021 21:55:21,PC_1,100,22,455,T,T,80,non-threatening,HSF,contrast-normalized,salamander 26_HSF_norm,/mask060.png,l,False,32.136,66.603
569,20/03/2021 21:55:21,PC_1,100,22,455,T,T,81,non-threatening,NoFilter,contrast-normalized,vlieg 8_FS_norm,/mask006.png,l,False,274.193,66.359
569,20/03/2021 21:55:21,PC_1,100,22,455,T,T,82,threatening,HSF,contrast-normalized,slang 14_HSF_norm,/mask065.png,l,True,329.92,66.661
569,20/03/2021 21:55:21,PC_1,100,22,455,T,T,83,non-threatening,LSF,no-normalization,salamander 20_LSF_unnorm,/mask071.png,l,False,143.819,66.811
569,20/03/2021 21:55:21,PC_1,100,22,455,T,T,84,threatening,LSF,no-normalization,wesp 26_LSF_unnorm,/mask069.png,l,True,236.179,66.044
569,20/03/2021 21:55:21,PC_1,100,22,455,T,T,85,threatening,HSF,no-normalization,Slang 25_HSF_unnorm,/mask073.png,l,True,485.324,66.89
569,20/03/2021 21:55:21,PC_1,100,22,455,T,T,86,threatening,HSF,no-normalization,wesp 24_HSF_unnorm,/mask028.png,l,True,68.747,66.505
569,20/03/2021 21:55:21,PC_1,100,22,455,T,T,87,non-threatening,LSF,no-normalization,salamander 5_LSF_unnorm,/mask083.png,l,False,469.035,66.751
569,20/03/2021 21:55:21,PC_1,100,22,455,T,T,88,non-threatening,HSF,no-normalization,salamander 21_HSF_unnorm,/mask040.png,l,False,364.257,66.46
569,20/03/2021 21:55:21,PC_1,100,22,455,T,T,89,threatening,LSF,contrast-normalized,Slang 5_LSF_norm,/mask082.png,l,True,272.192,66.9
569,20/03/2021 21:55:21,PC_1,100,22,455,T,T,90,threatening,NoFilter,contrast-normalized,slang 11_FS_norm,/mask057.png,l,True,168.119,66.046
569,20/03/2021 21:55:21,PC_1,100,22,455,T,T,91,threatening,LSF,contrast-normalized,wesp 21_LSF_norm,/mask015.png,l,True,356.234,66.958
569,20/03/2021 21:55:21,PC_1,100,22,455,T,T,92,non-threatening,HSF,no-normalization,salamander 2_HSF_unnorm,/mask041.png,l,False,25.71,66.523
569,20/03/2021 21:55:21,PC_1,100,22,455,T,T,93,non-threatening,LSF,no-normalization,vlieg 3_LSF_unnorm,/mask046.png,l,False,435.319,66.797
569,20/03/2021 21:55:21,PC_1,100,22,455,T,T,94,non-threatening,HSF,no-normalization,vlieg 18_HSF_unnorm,/mask072.png,l,False,148.81,67.075
569,20/03/2021 21:55:21,PC_1,100,22,455,T,T,95,non-threatening,LSF,contrast-normalized,salamander 15_LSF_norm,/mask045.png,l,False,586.413,66.125
569,20/03/2021 21:55:21,PC_1,100,22,455,T,T,96,non-threatening,LSF,no-normalization,salamander 14_LSF_unnorm,/mask092.png,l,False,711.514,66.617
569,20/03/2021 21:55:21,PC_1,100,22,455,T,T,97,threatening,LSF,no-normalization,wesp 27_LSF_unnorm,/mask044.png,l,True,60.025,66.857
569,20/03/2021 21:55:21,PC_1,100,22,455,T,T,98,non-threatening,LSF,no-normalization,vlieg 11_LSF_unnorm,/mask068.png,l,False,244.185,66.707
569,20/03/2021 21:55:21,PC_1,100,22,455,T,T,99,threatening,LSF,no-normalization,wesp 8_LSF_unnorm,/mask075.png,l,True,78.054,66.572
77,20/03/2021 22:06:26,PC_1,100,85,85,5,5,0,non-threatening,LSF,contrast-normalized,vlieg 22_LSF_norm,/mask013.png,s,True,263.185,51.157
77,20/03/2021 22:06:26,PC_1,100,85,85,5,5,1,threatening,LSF,no-normalization,hoornaar 1_LSF_unnorm,/mask064.png,s,False,646.456,49.971
77,20/03/2021 22:06:26,PC_1,100,85,85,5,5,2,non-threatening,HSF,contrast-normalized,vlieg 26_HSF_norm,/mask038.png,l,False,510.342,49.963
77,20/03/2021 22:06:26,PC_1,100,85,85,5,5,3,non-threatening,HSF,no-normalization,vlieg 30_HSF_unnorm,/mask093.png,s,True,302.196,50.538
77,20/03/2021 22:06:26,PC_1,100,85,85,5,5,4,non-threatening,LSF,no-normalization,vlieg 15_LSF_unnorm,/mask069.png,l,False,420.314,49.584
77,20/03/2021 22:06:26,PC_1,100,85,85,5,5,5,threatening,HSF,no-normalization,slang 31_HSF_unnorm,/mask057.png,s,False,311.202,50.997
77,20/03/2021 22:06:26,PC_1,100,85,85,5,5,6,non-threatening,LSF,no-normalization,salamander 27_LSF_unnorm,/mask016.png,s,True,413.301,50.416
77,20/03/2021 22:06:26,PC_1,100,85,85,5,5,7,threatening,LSF,no-normalization,Slang 7_LSF_unnorm,/mask063.png,s,False,495.367,51.149
77,20/03/2021 22:06:26,PC_1,100,85,85,5,5,8,threatening,LSF,contrast-normalized,wesp 26_LSF_norm,/mask044.png,s,False,263.185,50.035
77,20/03/2021 22:06:26,PC_1,100,85,85,5,5,9,non-threatening,LSF,no-normalization,vlieg 25_LSF_unnorm,/mask050.png,s,True,295.208,51.036
77,20/03/2021 22:06:26,PC_1,100,85,85,5,5,10,threatening,LSF,contrast-normalized,wesp 21_LSF_norm,/mask048.png,s,False,326.248,50.396
77,20/03/2021 22:06:26,PC_1,100,85,85,5,5,11,non-threatening,HSF,contrast-normalized,salamander 23_HSF_norm,/mask088.png,s,True,276.195,50.583
77,20/03/2021 22:06:26,PC_1,100,85,85,5,5,12,non-threatening,NoFilter,contrast-normalized,vlieg 31_FS_norm,/mask052.png,s,True,956.688,50.356
77,20/03/2021 22:06:26,PC_1,100,85,85,5,5,13,threatening,LSF,no-normalization,Slang 22_LSF_unnorm,/mask019.png,s,False,386.289,50.423
77,20/03/2021 22:06:26,PC_1,100,85,85,5,5,14,non-threatening,LSF,no-normalization,vlieg 7_LSF_unnorm,/mask004.png,l,False,621.438,50.459
77,20/03/2021 22:06:26,PC_1,100,85,85,5,5,15,threatening,LSF,no-normalization,wesp 17_LSF_unnorm,/mask071.png,s,False,472.346,50.384
77,20/03/2021 22:06:26,PC_1,100,85,85,5,5,16,non-threatening,HSF,no-normalization,salamander 2_HSF_unnorm,/mask025.png,s,True,192.136,50.414
77,20/03/2021 22:06:26,PC_1,100,85,85,5,5,17,threatening,HSF,no-normalization,wesp 20_HSF_unnorm,/mask073.png,s,False,291.2,50.222
77,20/03/2021 22:06:26,PC_1,100,85,85,5,5,18,non-threatening,HSF,contrast-normalized,vlieg 14_HSF_norm,/mask028.png,s,True,234.156,50.306
77,20/03/2021 22:06:26,PC_1,100,85,85,5,5,19,non-threatening,NoFilter,contrast-normalized,salamander 18_FS_norm,/mask006.png,s,True,267.172,50.43
77,20/03/2021 22:06:26,PC_1,100,85,85,5,5,20,non-threatening,LSF,contrast-normalized,vlieg 8_LSF_norm,/mask011.png,l,False,380.251,50.297
77,20/03/2021 22:06:26,PC_1,100,85,85,5,5,21,non-threatening,LSF,no-normalization,vlieg 3_LSF_unnorm,/mask012.png,l,False,520.384,50.343
77,20/03/2021 22:06:26,PC_1,100,85,85,5,5,22,non-threatening,LSF,no-normalization,salamander 16_LSF_unnorm,/mask021.png,l,False,343.242,49.635
77,20/03/2021 22:06:26,PC_1,100,85,85,5,5,23,non-threatening,NoFilter,contrast-normalized,salamander 7_FS_norm,/mask030.png,s,True,420.283,50.414
77,20/03/2021 22:06:26,PC_1,100,85,85,5,5,24,threatening,LSF,contrast-normalized,wesp 14_LSF_norm,/mask017.png,s,False,222.157,50.269
77,20/03/2021 22:06:26,PC_1,100,85,85,5,5,25,threatening,LSF,no-normalization,wesp 28_LSF_unnorm,/mask072.png,s,False,328.214,50.404
77,20/03/2021 22:06:26,PC_1,100,85,85,5,5,26,non-threatening,HSF,no-normalization,vlieg 18_HSF_unnorm,/mask001.png,s,True,462.343,49.426
77,20/03/2021 22:06:26,PC_1,100,85,85,5,5,27,non-threatening,LSF,contrast-normalized,vlieg 23_LSF_norm,/mask061.png,s,True,495.35,50.167
77,20/03/2021 22:06:26,PC_1,100,85,85,5,5,28,non-threatening,LSF,no-normalization,salamander 11_LSF_unnorm,/mask086.png,l,False,582.392,50.836
77,20/03/2021 22:06:26,PC_1,100,85,85,5,5,29,threatening,LSF,no-normalization,slang 28_LSF_unnorm,/mask045.png,s,False,618.45,50.055
77,20/03/2021 22:06:26,PC_1,100,85,85,5,5,30,threatening,HSF,no-normalization,wesp 27_HSF_unnorm,/mask005.png,l,True,365.24,50.123
77,20/03/2021 22:06:26,PC_1,100,85,85,5,5,31,threatening,NoFilter,contrast-normalized,slang 16_FS_norm,/mask027.png,s,False,456.321,50.294
77,20/03/2021 22:06:26,PC_1,100,85,85,5,5,32,threatening,LSF,contrast-normalized,Slang 6_LSF_norm,/mask096.png,s,False,288.185,50.155
77,20/03/2021 22:06:26,PC_1,100,85,85,5,5,33,threatening,HSF,contrast-normalized,wesp 5_HSF_norm,/mask055.png,s,False,607.412,50.471
77,20/03/2021 22:06:26,PC_1,100,85,85,5,5,34,non-threatening,NoFilter,contrast-normalized,vlieg 27_FS_norm,/mask087.png,l,False,347.244,50.318
77,20/03/2021 22:06:26,PC_1,100,85,85,5,5,35,threatening,NoFilter,contrast-normalized,wesp 13_FS_norm,/mask047.png,s,False,463.302,50.339
77,20/03/2021 22:06:26,PC_1,100,85,85,5,5,36,threatening,HSF,no-normalization,Slang 8_HSF_unnorm,/mask010.png,s,False,369.243,50.329
77,20/03/2021 22:06:26,PC_1,100,85,85,5,5,37,threatening,NoFilter,contrast-normalized,wesp 8_FS_norm,/mask068.png,s,False,572.403,51.184
77,20/03/2021 22:06:26,PC_1,100,85,85,5,5,38,non-threatening,LSF,no-normalization,vlieg 5_LSF_unnorm,/mask056.png,s,True,321.244,50.435
77,20/03/2021 22:06:26,PC_1,100,85,85,5,5,39,non-threatening,HSF,no-normalization,vlieg 11_HSF_unnorm,/mask082.png,s,True,272.174,50.369
77,20/03/2021 22:06:26,PC_1,100,85,85,5,5,40,threatening,HSF,contrast-normalized,Slang 5_HSF_norm,/mask024.png,s,False,63.046,51.13
77,20/03/2021 22:06:26,PC_1,100,85,85,5,5,41,non-threatening,LSF,contrast-normalized,salamander 4_LSF_norm,/mask076.png,l,False,320.243,51.087
77,20/03/2021 22:06:26,PC_1,100,85,85,5,5,42,non-threatening,NoFilter,contrast-normalized,salamander 19_FS_norm,/mask041.png,s,True,471.35,50.314
77,20/03/2021 22:06:26,PC_1,100,85,85,5,5,43,non-threatening,HSF,contrast-normalized,salamander 26_HSF_norm,/mask003.png,s,True,254.161,50.272
77,20/03/2021 22:06:26,PC_1,100,85,85,5,5,44,non-threatening,LSF,contrast-normalized,vlieg 29_LSF_norm,/mask049.png,s,True,232.149,50.31
77,20/03/2021 22:06:26,PC_1,100,85,85,5,5,45,non-threatening,NoFilter,contrast-normalized,vlieg 17_FS_norm,/mask059.png,l,False,665.469,50.091
77,20/03/2021 22:06:26,PC_1,100,85,85,5,5,46,non-threatening,HSF,no-normalization,salamander 20_HSF_unnorm,/mask089.png,s,True,409.301,50.241
77,20/03/2021 22:06:26,PC_1,100,85,85,5,5,47,non-threatening,LSF,contrast-normalized,salamander 3_LSF_norm,/mask090.png,l,False,308.237,50.199
77,20/03/2021 22:06:26,PC_1,100,85,85,5,5,48,threatening,LSF,contrast-normalized,slang 21_LSF_norm,/mask039.png,s,False,203.146,50.034
77,20/03/2021 22:06:26,PC_1,100,85,85,5,5,49,threatening,HSF,no-normalization,wesp 4_HSF_unnorm,/mask033.png,s,False,174.123,50.327
77,20/03/2021 22:06:26,PC_1,100,85,85,5,5,50,non-threatening,HSF,no-normalization,vlieg 20_HSF_unnorm,/mask031.png,l,False,161.108,50.217
77,20/03/2021 22:06:26,PC_1,100,85,85,5,5,51,non-threatening,HSF,contrast-normalized,vlieg 6_HSF_norm,/mask058.png,s,True,606.427,50.286
77,20/03/2021 22:06:26,PC_1,100,85,85,5,5,52,non-threatening,HSF,no-normalization,salamander 21_HSF_unnorm,/mask008.png,s,True,97.086,50.218
77,20/03/2021 22:06:26,PC_1,100,85,85,5,5,53,non-threatening,HSF,no-normalization,salamander 1_HSF_unnorm,/mask066.png,s,True,72.049,50.234
77,20/03/2021 22:06:26,PC_1,100,85,85,5,5,54,non-threatening,HSF,contrast-normalized,salamander 22_HSF_norm,/mask029.png,s,True,240.17,50.376
77,20/03/2021 22:06:26,PC_1,100,85,85,5,5,55,non-threatening,LSF,no-normalization,salamander 15_LSF_unnorm,/mask042.png,s,True,321.24,50.264
77,20/03/2021 22:06:26,PC_1,100,85,85,5,5,56,threatening,LSF,contrast-normalized,Slang 27_LSF_norm,/mask023.png,s,False,127.073,49.574
77,20/03/2021 22:06:26,PC_1,100,85,85,5,5,57,threatening,HSF,contrast-normalized,slang 29_HSF_norm,/mask081.png,l,True,190.153,50.456
77,20/03/2021 22:06:26,PC_1,100,85,85,5,5,58,threatening,LSF,no-normalization,wesp 18_LSF_unnorm,/mask070.png,s,False,401.266,50.145
77,20/03/2021 22:06:26,PC_1,100,85,85,5,5,59,threatening,NoFilter,contrast-normalized,wesp 11_FS_norm,/mask079.png,s,False,140.081,49.335
77,20/03/2021 22:06:26,PC_1,100,85,85,5,5,60,threatening,HSF,contrast-normalized,wesp 15_HSF_norm,/mask000.png,s,False,153.092,50.385
77,20/03/2021 22:06:26,PC_1,100,85,85,5,5,61,threatening,HSF,contrast-normalized,slang 15_HSF_norm,/mask091.png,s,False,286.202,50.272
77,20/03/2021 22:06:26,PC_1,100,85,85,5,5,62,threatening,LSF,contrast-normalized,slang 13_LSF_norm,/mask015.png,s,False,262.168,50.158
77,20/03/2021 22:06:26,PC_1,100,85,85,5,5,63,non-threatening,HSF,no-normalization,vlieg 12_HSF_unnorm,/mask084.png,s,True,271.209,50.588
77,20/03/2021 22:06:26,PC_1,100,85,85,5,5,64,non-threatening,LSF,contrast-normalized,salamander 28_LSF_norm,/mask009.png,s,True,127.108,50.388
77,20/03/2021 22:06:26,PC_1,100,85,85,5,5,65,threatening,NoFilter,contrast-normalized,Slang 3_FS_norm,/mask043.png,s,False,260.183,50.023
77,20/03/2021 22:06:26,PC_1,100,85,85,5,5,66,non-threatening,LSF,contrast-normalized,salamander 9_LSF_norm,/mask094.png,s,True,293.189,50.401
77,20/03/2021 22:06:26,PC_1,100,85,85,5,5,67,threatening,HSF,no-normalization,Slang 2_HSF_unnorm,/mask046.png,s,False,12.992,50.23
77,20/03/2021 22:06:26,PC_1,100,85,85,5,5,68,threatening,HSF,contrast-normalized,wesp 25_HSF_norm,/mask014.png,s,False,48.016,50.25
77,20/03/2021 22:06:26,PC_1,100,85,85,5,5,69,threatening,HSF,contrast-normalized,Slang 25_HSF_norm,/mask067.png,s,False,448.315,50.367
77,20/03/2021 22:06:26,PC_1,100,85,85,5,5,70,non-threatening,HSF,contrast-normalized,vlieg 13_HSF_norm,/mask078.png,l,False,314.216,50.391
77,20/03/2021 22:06:26,PC_1,100,85,85,5,5,71,non-threatening,NoFilter,contrast-normalized,vlieg 16_FS_norm,/mask051.png,s,True,321.23,50.035
77,20/03/2021 22:06:26,PC_1,100,85,85,5,5,72,threatening,LSF,contrast-normalized,wesp 22_LSF_norm,/mask092.png,s,False,237.175,50.465
77,20/03/2021 22:06:26,PC_1,100,85,85,5,5,73,non-threatening,LSF,no-normalization,salamander 25_LSF_unnorm,/mask036.png,s,True,271.192,50.295
77,20/03/2021 22:06:26,PC_1,100,85,85,5,5,74,non-threatening,HSF,contrast-normalized,salamander 24_HSF_norm,/mask018.png,s,True,183.124,50.178
77,20/03/2021 22:06:26,PC_1,100,85,85,5,5,75,threatening,LSF,no-normalization,hoornaar 2_LSF_unnorm,/mask034.png,l,True,283.182,50.501
77,20/03/2021 22:06:26,PC_1,100,85,85,5,5,76,threatening,NoFilter,contrast-normalized,Slang 1_FS_norm,/mask040.png,s,False,116.082,50.229
77,20/03/2021 22:06:26,PC_1,100,85,85,5,5,77,threatening,LSF,contrast-normalized,wesp 19_LSF_norm,/mask085.png,s,False,89.063,50.451
77,20/03/2021 22:06:26,PC_1,100,85,85,5,5,78,threatening,NoFilter,contrast-normalized,Slang 10_FS_norm,/mask020.png,s,False,265.187,49.929
77,20/03/2021 22:06:26,PC_1,100,85,85,5,5,79,threatening,NoFilter,contrast-normalized,wesp 7_FS_norm,/mask007.png,l,True,313.204,50.512
77,20/03/2021 22:06:26,PC_1,100,85,85,5,5,80,threatening,LSF,no-normalization,slang 30_LSF_unnorm,/mask026.png,s,False,184.128,50.216
77,20/03/2021 22:06:26,PC_1,100,85,85,5,5,81,threatening,HSF,contrast-normalized,slang 14_HSF_norm,/mask097.png,s,False,291.188,50.051
77,20/03/2021 22:06:26,PC_1,100,85,85,5,5,82,threatening,NoFilter,contrast-normalized,slang 12_FS_norm,/mask062.png,s,False,99.07,49.986
77,20/03/2021 22:06:26,PC_1,100,85,85,5,5,83,threatening,HSF,no-normalization,wesp 6_HSF_unnorm,/mask060.png,s,False,322.21,50.17
77,20/03/2021 22:06:26,PC_1,100,85,85,5,5,84,threatening,HSF,contrast-normalized,wesp 16_HSF_norm,/mask037.png,s,False,95.773,50.368
77,20/03/2021 22:06:26,PC_1,100,85,85,5,5,85,threatening,HSF,no-normalization,slang 20_HSF_unnorm,/mask074.png,l,True,296.192,50.355
77,20/03/2021 22:06:26,PC_1,100,85,85,5,5,86,non-threatening,NoFilter,contrast-normalized,salamander 14_FS_norm,/mask053.png,l,False,798.563,50.103
77,20/03/2021 22:06:26,PC_1,100,85,85,5,5,87,non-threatening,LSF,contrast-normalized,salamander 5_LSF_norm,/mask099.png,s,True,281.166,49.374
77,20/03/2021 22:06:26,PC_1,100,85,85,5,5,88,threatening,NoFilter,contrast-normalized,wesp 23_FS_norm,/mask098.png,s,False,272.197,50.505
77,20/03/2021 22:06:26,PC_1,100,85,85,5,5,89,threatening,LSF,contrast-normalized,slang 17_LSF_norm,/mask032.png,s,False,288.216,50.192
77,20/03/2021 22:06:26,PC_1,100,85,85,5,5,90,threatening,HSF,no-normalization,wesp 10_HSF_unnorm,/mask054.png,s,False,184.133,50.404
77,20/03/2021 22:06:26,PC_1,100,85,85,5,5,91,non-threatening,HSF,contrast-normalized,vlieg 28_HSF_norm,/mask075.png,s,True,284.193,51.139
77,20/03/2021 22:06:26,PC_1,100,85,85,5,5,92,non-threatening,HSF,contrast-normalized,salamander 10_HSF_norm,/mask083.png,s,True,275.176,50.432
77,20/03/2021 22:06:26,PC_1,100,85,85,5,5,93,threatening,HSF,contrast-normalized,wesp 24_HSF_norm,/mask077.png,s,False,195.123,50.213
77,20/03/2021 22:06:26,PC_1,100,85,85,5,5,94,threatening,HSF,no-normalization,slang 11_HSF_unnorm,/mask022.png,s,False,263.185,50.102
77,20/03/2021 22:06:26,PC_1,100,85,85,5,5,95,non-threatening,NoFilter,contrast-normalized,salamander 17_FS_norm,/mask035.png,l,False,287.22,50.183
77,20/03/2021 22:06:26,PC_1,100,85,85,5,5,96,threatening,LSF,no-normalization,Slang 4_LSF_unnorm,/mask002.png,s,False,295.208,50.391
77,20/03/2021 22:06:26,PC_1,100,85,85,5,5,97,non-threatening,LSF,contrast-normalized,vlieg 19_LSF_norm,/mask080.png,l,False,253.179,50.454
77,20/03/2021 22:06:26,PC_1,100,85,85,5,5,98,non-threatening,NoFilter,contrast-normalized,vlieg 24_FS_norm,/mask065.png,l,False,255.163,50.741
77,20/03/2021 22:06:26,PC_1,100,85,85,5,5,99,non-threatening,HSF,no-normalization,salamander 13_HSF_unnorm,/mask095.png,l,False,368.242,49.576
50,20/03/2021 22:31:52,PC_1,100,1,21,F,Yes,0,threatening,LSF,contrast-normalized,slang 31_LSF_norm,/mask078.png,l,False,181.141,50.669
50,20/03/2021 22:31:52,PC_1,100,1,21,F,Yes,1,non-threatening,HSF,no-normalization,vlieg 15_HSF_unnorm,/mask000.png,s,False,150.802,50.328
50,20/03/2021 22:31:52,PC_1,100,1,21,F,Yes,2,threatening,NoFilter,contrast-normalized,Slang 1_FS_norm,/mask087.png,s,True,316.224,50.627
50,20/03/2021 22:31:52,PC_1,100,1,21,F,Yes,3,threatening,HSF,no-normalization,wesp 20_HSF_unnorm,/mask076.png,l,False,427.284,50.099
50,20/03/2021 22:31:52,PC_1,100,1,21,F,Yes,4,non-threatening,HSF,contrast-normalized,salamander 5_HSF_norm,/mask063.png,l,True,477.336,50.742
50,20/03/2021 22:31:52,PC_1,100,1,21,F,Yes,5,threatening,LSF,no-normalization,slang 17_LSF_unnorm,/mask021.png,s,True,348.241,51.239
50,20/03/2021 22:31:52,PC_1,100,1,21,F,Yes,6,threatening,LSF,contrast-normalized,slang 15_LSF_norm,/mask082.png,s,True,353.243,50.039
50,20/03/2021 22:31:52,PC_1,100,1,21,F,Yes,7,threatening,HSF,no-normalization,wesp 7_HSF_unnorm,/mask038.png,l,False,302.231,50.247
50,20/03/2021 22:31:52,PC_1,100,1,21,F,Yes,8,threatening,LSF,contrast-normalized,Slang 2_LSF_norm,/mask092.png,s,True,333.236,49.333
50,20/03/2021 22:31:52,PC_1,100,1,21,F,Yes,9,non-threatening,LSF,contrast-normalized,vlieg 31_LSF_norm,/mask075.png,l,True,458.324,50.471
50,20/03/2021 22:31:52,PC_1,100,1,21,F,Yes,10,non-threatening,LSF,contrast-normalized,vlieg 12_LSF_norm,/mask020.png,l,True,339.238,50.279
50,20/03/2021 22:31:52,PC_1,100,1,21,F,Yes,11,non-threatening,LSF,no-normalization,salamander 19_LSF_unnorm,/mask035.png,s,False,440.328,50.003
50,20/03/2021 22:31:52,PC_1,100,1,21,F,Yes,12,non-threatening,LSF,no-normalization,vlieg 18_LSF_unnorm,/mask015.png,s,False,507.375,49.334
50,20/03/2021 22:31:52,PC_1,100,1,21,F,Yes,13,threatening,HSF,no-normalization,Slang 22_HSF_unnorm,/mask051.png,l,False,313.206,50.325
50,20/03/2021 22:31:52,PC_1,100,1,21,F,Yes,14,non-threatening,LSF,contrast-normalized,salamander 23_LSF_norm,/mask081.png,s,False,384.253,50.428
50,20/03/2021 22:31:52,PC_1,100,1,21,F,Yes,15,non-threatening,LSF,contrast-normalized,salamander 10_LSF_norm,/mask047.png,s,False,371.274,49.73
50,20/03/2021 22:31:52,PC_1,100,1,21,F,Yes,16,threatening,LSF,no-normalization,wesp 24_LSF_unnorm,/mask058.png,l,False,463.325,50.036
50,20/03/2021 22:31:52,PC_1,100,1,21,F,Yes,17,threatening,HSF,no-normalization,wesp 22_HSF_unnorm,/mask089.png,l,False,225.171,49.452
50,20/03/2021 22:31:52,PC_1,100,1,21,F,Yes,18,threatening,HSF,contrast-normalized,hoornaar 1_HSF_norm,/mask041.png,s,True,307.199,50.27
50,20/03/2021 22:31:52,PC_1,100,1,21,F,Yes,19,non-threatening,LSF,no-normalization,vlieg 5_LSF_unnorm,/mask027.png,l,True,282.181,50.364
50,20/03/2021 22:31:52,PC_1,100,1,21,F,Yes,20,non-threatening,HSF,contrast-normalized,vlieg 25_HSF_norm,/mask024.png,s,False,361.272,50.107
50,20/03/2021 22:31:52,PC_1,100,1,21,F,Yes,21,non-threatening,LSF,no-normalization,vlieg 6_LSF_unnorm,/mask071.png,l,True,213.132,50.194
50,20/03/2021 22:31:52,PC_1,100,1,21,F,Yes,22,non-threatening,HSF,contrast-normalized,salamander 27_HSF_norm,/mask032.png,l,True,311.202,50.816
50,20/03/2021 22:31:52,PC_1,100,1,21,F,Yes,23,threatening,HSF,contrast-normalized,slang 13_HSF_norm,/mask049.png,s,True,334.235,50.397
50,20/03/2021 22:31:52,PC_1,100,1,21,F,Yes,24,non-threatening,LSF,no-normalization,salamander 7_LSF_unnorm,/mask052.png,s,False,260.192,50.242
50,20/03/2021 22:31:52,PC_1,100,1,21,F,Yes,25,non-threatening,LSF,no-normalization,salamander 15_LSF_unnorm,/mask040.png,l,True,245.168,50.023
50,20/03/2021 22:31:52,PC_1,100,1,21,F,Yes,26,threatening,NoFilter,contrast-normalized,Slang 4_FS_norm,/mask099.png,s,True,278.18,50.208
50,20/03/2021 22:31:52,PC_1,100,1,21,F,Yes,27,threatening,LSF,contrast-normalized,wesp 18_LSF_norm,/mask009.png,s,True,373.256,50.48
50,20/03/2021 22:31:52,PC_1,100,1,21,F,Yes,28,threatening,LSF,no-normalization,wesp 21_LSF_unnorm,/mask097.png,s,True,322.227,51.057
50,20/03/2021 22:31:52,PC_1,100,1,21,F,Yes,29,threatening,HSF,contrast-normalized,Slang 25_HSF_norm,/mask083.png,s,True,232.183,50.491
50,20/03/2021 22:31:52,PC_1,100,1,21,F,Yes,30,threatening,LSF,contrast-normalized,wesp 8_LSF_norm,/mask055.png,s,True,210.148,50.269
50,20/03/2021 22:31:52,PC_1,100,1,21,F,Yes,31,non-threatening,NoFilter,contrast-normalized,vlieg 13_FS_norm,/mask007.png,l,True,309.201,49.967
50,20/03/2021 22:31:52,PC_1,100,1,21,F,Yes,32,threatening,NoFilter,contrast-normalized,wesp 16_FS_norm,/mask066.png,s,True,258.202,50.219
50,20/03/2021 22:31:52,PC_1,100,1,21,F,Yes,33,threatening,NoFilter,contrast-normalized,wesp 10_FS_norm,/mask044.png,s,True,276.207,50.398
50,20/03/2021 22:31:52,PC_1,100,1,21,F,Yes,34,threatening,NoFilter,contrast-normalized,wesp 13_FS_norm,/mask053.png,s,True,187.115,50.325
50,20/03/2021 22:31:52,PC_1,100,1,21,F,Yes,35,threatening,HSF,contrast-normalized,wesp 5_HSF_norm,/mask072.png,s,True,294.207,50.514
50,20/03/2021 22:31:52,PC_1,100,1,21,F,Yes,36,non-threatening,LSF,contrast-normalized,vlieg 26_LSF_norm,/mask026.png,l,True,262.198,50.356
50,20/03/2021 22:31:52,PC_1,100,1,21,F,Yes,37,non-threatening,LSF,contrast-normalized,vlieg 16_LSF_norm,/mask002.png,l,True,294.175,50.488
50,20/03/2021 22:31:52,PC_1,100,1,21,F,Yes,38,non-threatening,HSF,no-normalization,salamander 4_HSF_unnorm,/mask010.png,l,True,261.184,50.946
50,20/03/2021 22:31:52,PC_1,100,1,21,F,Yes,39,non-threatening,LSF,contrast-normalized,vlieg 19_LSF_norm,/mask085.png,l,True,286.184,50.326
50,20/03/2021 22:31:52,PC_1,100,1,21,F,Yes,40,non-threatening,HSF,contrast-normalized,salamander 17_HSF_norm,/mask090.png,s,False,582.392,50.311
50,20/03/2021 22:31:52,PC_1,100,1,21,F,Yes,41,threatening,NoFilter,contrast-normalized,Slang 7_FS_norm,/mask060.png,s,True,226.177,50.432
50,20/03/2021 22:31:52,PC_1,100,1,21,F,Yes,42,non-threatening,HSF,no-normalization,vlieg 20_HSF_unnorm,/mask095.png,l,True,124.07,50.531
50,20/03/2021 22:31:52,PC_1,100,1,21,F,Yes,43,non-threatening,LSF,contrast-normalized,salamander 16_LSF_norm,/mask074.png,s,False,417.29,50.492
50,20/03/2021 22:31:52,PC_1,100,1,21,F,Yes,44,threatening,LSF,contrast-normalized,slang 28_LSF_norm,/mask031.png,s,True,301.213,49.4
50,20/03/2021 22:31:52,PC_1,100,1,21,F,Yes,45,non-threatening,NoFilter,contrast-normalized,salamander 2_FS_norm,/mask037.png,l,True,331.233,50.205
50,20/03/2021 22:31:52,PC_1,100,1,21,F,Yes,46,non-threatening,HSF,no-normalization,vlieg 8_HSF_unnorm,/mask069.png,l,True,177.138,50.378
50,20/03/2021 22:31:52,PC_1,100,1,21,F,Yes,47,non-threatening,LSF,contrast-normalized,salamander 11_LSF_norm,/mask025.png,l,True,445.316,50.223
50,20/03/2021 22:31:52,PC_1,100,1,21,F,Yes,48,threatening,HSF,no-normalization,slang 20_HSF_unnorm,/mask023.png,l,False,231.163,50.194
50,20/03/2021 22:31:52,PC_1,100,1,21,F,Yes,49,non-threatening,LSF,no-normalization,vlieg 29_LSF_unnorm,/mask062.png,l,True,257.177,51.362
50,20/03/2021 22:31:52,PC_1,100,1,21,F,Yes,50,non-threatening,HSF,no-normalization,vlieg 22_HSF_unnorm,/mask093.png,l,True,129.11,50.012
50,20/03/2021 22:31:52,PC_1,100,1,21,F,Yes,51,threatening,NoFilter,contrast-normalized,Slang 6_FS_norm,/mask050.png,s,True,287.203,50.348
50,20/03/2021 22:31:52,PC_1,100,1,21,F,Yes,52,threatening,HSF,contrast-normalized,wesp 14_HSF_norm,/mask001.png,s,True,286.185,50.059
50,20/03/2021 22:31:52,PC_1,100,1,21,F,Yes,53,threatening,NoFilter,contrast-normalized,wesp 6_FS_norm,/mask045.png,s,True,237.15,50.131
50,20/03/2021 22:31:52,PC_1,100,1,21,F,Yes,54,non-threatening,HSF,no-normalization,salamander 26_HSF_unnorm,/mask012.png,l,True,279.179,50.251
50,20/03/2021 22:31:52,PC_1,100,1,21,F,Yes,55,non-threatening,LSF,no-normalization,vlieg 3_LSF_unnorm,/mask064.png,l,True,454.332,50.323
50,20/03/2021 22:31:52,PC_1,100,1,21,F,Yes,56,non-threatening,LSF,contrast-normalized,salamander 13_LSF_norm,/mask054.png,l,True,239.151,50.338
50,20/03/2021 22:31:52,PC_1,100,1,21,F,Yes,57,non-threatening,HSF,contrast-normalized,vlieg 11_HSF_norm,/mask091.png,s,False,353.231,50.314
50,20/03/2021 22:31:52,PC_1,100,1,21,F,Yes,58,threatening,HSF,contrast-normalized,slang 11_HSF_norm,/mask077.png,s,True,309.214,50.391
50,20/03/2021 22:31:52,PC_1,100,1,21,F,Yes,59,non-threatening,NoFilter,contrast-normalized,vlieg 14_FS_norm,/mask011.png,l,True,316.208,50.294
50,20/03/2021 22:31:52,PC_1,100,1,21,F,Yes,60,non-threatening,HSF,contrast-normalized,vlieg 7_HSF_norm,/mask079.png,l,True,227.143,50.222
50,20/03/2021 22:31:52,PC_1,100,1,21,F,Yes,61,threatening,HSF,no-normalization,Slang 10_HSF_unnorm,/mask080.png,l,False,109.06,50.371
50,20/03/2021 22:31:52,PC_1,100,1,21,F,Yes,62,threatening,HSF,no-normalization,Slang 27_HSF_unnorm,/mask088.png,l,False,187.133,49.476
50,20/03/2021 22:31:52,PC_1,100,1,21,F,Yes,63,threatening,HSF,contrast-normalized,slang 30_HSF_norm,/mask034.png,s,True,519.351,50.819
50,20/03/2021 22:31:52,PC_1,100,1,21,F,Yes,64,non-threatening,HSF,contrast-normalized,vlieg 17_HSF_norm,/mask067.png,s,False,333.246,50.278
50,20/03/2021 22:31:52,PC_1,100,1,21,F,Yes,65,threatening,LSF,no-normalization,slang 21_LSF_unnorm,/mask098.png,l,False,355.251,51.143
50,20/03/2021 22:31:52,PC_1,100,1,21,F,Yes,66,non-threatening,HSF,no-normalization,salamander 24_HSF_unnorm,/mask068.png,l,True,192.135,50.387
50,20/03/2021 22:31:52,PC_1,100,1,21,F,Yes,67,threatening,LSF,no-normalization,wesp 15_LSF_unnorm,/mask094.png,s,True,259.201,50.371
50,20/03/2021 22:31:52,PC_1,100,1,21,F,Yes,68,non-threatening,LSF,no-normalization,salamander 20_LSF_unnorm,/mask065.png,l,True,300.212,50.138
50,20/03/2021 22:31:52,PC_1,100,1,21,F,Yes,69,threatening,HSF,contrast-normalized,wesp 28_HSF_norm,/mask084.png,s,True,243.154,50.194
50,20/03/2021 22:31:52,PC_1,100,1,21,F,Yes,70,non-threatening,HSF,no-normalization,vlieg 23_HSF_unnorm,/mask013.png,l,True,204.127,51.14
50,20/03/2021 22:31:52,PC_1,100,1,21,F,Yes,71,threatening,LSF,no-normalization,Slang 3_LSF_unnorm,/mask004.png,s,True,152.09,50.567
50,20/03/2021 22:31:52,PC_1,100,1,21,F,Yes,72,non-threatening,HSF,contrast-normalized,salamander 9_HSF_norm,/mask003.png,s,False,260.167,50.552
50,20/03/2021 22:31:52,PC_1,100,1,21,F,Yes,73,non-threatening,NoFilter,contrast-normalized,vlieg 27_FS_norm,/mask005.png,l,True,253.197,50.418
50,20/03/2021 22:31:52,PC_1,100,1,21,F,Yes,74,threatening,LSF,contrast-normalized,wesp 23_LSF_norm,/mask057.png,s,True,190.117,50.405
50,20/03/2021 22:31:52,PC_1,100,1,21,F,Yes,75,non-threatening,HSF,contrast-normalized,salamander 28_HSF_norm,/mask086.png,s,False,290.204,50.574
50,20/03/2021 22:31:52,PC_1,100,1,21,F,Yes,76,non-threatening,NoFilter,contrast-normalized,salamander 22_FS_norm,/mask016.png,l,True,241.187,50.313
50,20/03/2021 22:31:52,PC_1,100,1,21,F,Yes,77,non-threatening,HSF,contrast-normalized,vlieg 30_HSF_norm,/mask006.png,l,True,490.363,50.144
50,20/03/2021 22:31:52,PC_1,100,1,21,F,Yes,78,threatening,LSF,no-normalization,Slang 8_LSF_unnorm,/mask017.png,s,True,225.154,50.571
50,20/03/2021 22:31:52,PC_1,100,1,21,F,Yes,79,threatening,HSF,contrast-normalized,wesp 11_HSF_norm,/mask043.png,l,False,172.122,50.471
50,20/03/2021 22:31:52,PC_1,100,1,21,F,Yes,80,threatening,LSF,no-normalization,hoornaar 2_LSF_unnorm,/mask019.png,s,True,305.224,50.445
50,20/03/2021 22:31:52,PC_1,100,1,21,F,Yes,81,non-threatening,NoFilter,contrast-normalized,vlieg 24_FS_norm,/mask030.png,l,True,119.082,50.16
50,20/03/2021 22:31:52,PC_1,100,1,21,F,Yes,82,threatening,LSF,contrast-normalized,wesp 4_LSF_norm,/mask018.png,s,True,308.234,50.4
50,20/03/2021 22:31:52,PC_1,100,1,21,F,Yes,83,threatening,NoFilter,contrast-normalized,Slang 5_FS_norm,/mask022.png,s,True,259.166,50.036
50,20/03/2021 22:31:52,PC_1,100,1,21,F,Yes,84,non-threatening,HSF,no-normalization,salamander 18_HSF_unnorm,/mask039.png,l,True,99.053,50.386
50,20/03/2021 22:31:52,PC_1,100,1,21,F,Yes,85,threatening,NoFilter,contrast-normalized,wesp 19_FS_norm,/mask042.png,s,True,307.217,50.023
50,20/03/2021 22:31:52,PC_1,100,1,21,F,Yes,86,threatening,HSF,contrast-normalized,slang 12_HSF_norm,/mask029.png,l,False,506.339,50.545
50,20/03/2021 22:31:52,PC_1,100,1,21,F,Yes,87,threatening,LSF,no-normalization,slang 14_LSF_unnorm,/mask073.png,s,True,273.205,50.13
50,20/03/2021 22:31:52,PC_1,100,1,21,F,Yes,88,non-threatening,NoFilter,contrast-normalized,vlieg 28_FS_norm,/mask070.png,l,True,288.222,50.208
50,20/03/2021 22:31:52,PC_1,100,1,21,F,Yes,89,threatening,HSF,no-normalization,wesp 17_HSF_unnorm,/mask046.png,l,False,240.164,49.945
50,20/03/2021 22:31:52,PC_1,100,1,21,F,Yes,90,threatening,LSF,contrast-normalized,slang 29_LSF_norm,/mask096.png,s,True,241.169,50.296
50,20/03/2021 22:31:52,PC_1,100,1,21,F,Yes,91,threatening,LSF,contrast-normalized,wesp 27_LSF_norm,/mask061.png,s,True,227.161,50.232
50,20/03/2021 22:31:52,PC_1,100,1,21,F,Yes,92,threatening,LSF,no-normalization,wesp 25_LSF_unnorm,/mask028.png,s,True,173.105,50.11
50,20/03/2021 22:31:52,PC_1,100,1,21,F,Yes,93,non-threatening,NoFilter,contrast-normalized,salamander 21_FS_norm,/mask008.png,l,True,256.18,50.313
50,20/03/2021 22:31:52,PC_1,100,1,21,F,Yes,94,non-threatening,NoFilter,contrast-normalized,salamander 1_FS_norm,/mask033.png,l,True,154.091,50.89
50,20/03/2021 22:31:52,PC_1,100,1,21,F,Yes,95,non-threatening,LSF,no-normalization,salamander 3_LSF_unnorm,/mask059.png,l,True,63.062,50.511
50,20/03/2021 22:31:52,PC_1,100,1,21,F,Yes,96,threatening,HSF,no-normalization,wesp 26_HSF_unnorm,/mask056.png,l,False,152.114,50.306
50,20/03/2021 22:31:52,PC_1,100,1,21,F,Yes,97,non-threatening,HSF,no-normalization,salamander 25_HSF_unnorm,/mask048.png,l,True,140.094,50.391
50,20/03/2021 22:31:52,PC_1,100,1,21,F,Yes,98,threatening,HSF,no-normalization,slang 16_HSF_unnorm,/mask036.png,l,False,322.24,50.153
50,20/03/2021 22:31:52,PC_1,100,1,21,F,Yes,99,non-threatening,NoFilter,contrast-normalized,salamander 14_FS_norm,/mask014.png,l,True,144.114,50.271
88,20/03/2021 23:15:52,PC_1,100,99,45,n,5,0,non-threatening,LSF,contrast-normalized,salamander 4_LSF_norm,/mask030.png,l,True,702.597,50.252
88,20/03/2021 23:15:52,PC_1,100,99,45,n,5,1,threatening,LSF,contrast-normalized,Slang 1_LSF_norm,/mask081.png,l,False,251.182,50.478
88,20/03/2021 23:15:52,PC_1,100,99,45,n,5,2,threatening,HSF,no-normalization,Slang 2_HSF_unnorm,/mask000.png,s,True,325.229,50.568
88,20/03/2021 23:15:52,PC_1,100,99,45,n,5,3,threatening,NoFilter,contrast-normalized,Slang 27_FS_norm,/mask042.png,s,True,290.192,50.259
88,20/03/2021 23:15:52,PC_1,100,99,45,n,5,4,non-threatening,LSF,contrast-normalized,salamander 11_LSF_norm,/mask031.png,s,False,290.192,49.529
88,20/03/2021 23:15:52,PC_1,100,99,45,n,5,5,threatening,HSF,contrast-normalized,slang 11_HSF_norm,/mask048.png,s,True,257.187,50.065
88,20/03/2021 23:15:52,PC_1,100,99,45,n,5,6,non-threatening,NoFilter,contrast-normalized,vlieg 20_FS_norm,/mask090.png,s,False,385.272,50.943
88,20/03/2021 23:15:52,PC_1,100,99,45,n,5,7,non-threatening,LSF,no-normalization,salamander 16_LSF_unnorm,/mask098.png,s,False,525.357,50.049
88,20/03/2021 23:15:52,PC_1,100,99,45,n,5,8,non-threatening,HSF,no-normalization,vlieg 6_HSF_unnorm,/mask027.png,s,False,659.452,50.454
88,20/03/2021 23:15:52,PC_1,100,99,45,n,5,9,non-threatening,LSF,contrast-normalized,vlieg 18_LSF_norm,/mask024.png,s,False,547.784,50.524
88,20/03/2021 23:15:52,PC_1,100,99,45,n,5,10,non-threatening,LSF,contrast-normalized,salamander 28_LSF_norm,/mask075.png,s,False,744.743,50.284
88,20/03/2021 23:15:52,PC_1,100,99,45,n,5,11,non-threatening,NoFilter,contrast-normalized,salamander 18_FS_norm,/mask002.png,s,False,230.151,50.168
88,20/03/2021 23:15:52,PC_1,100,99,45,n,5,12,non-threatening,HSF,no-normalization,vlieg 28_HSF_unnorm,/mask052.png,s,False,712.929,50.274
88,20/03/2021 23:15:52,PC_1,100,99,45,n,5,13,threatening,HSF,contrast-normalized,wesp 5_HSF_norm,/mask070.png,s,True,271.204,50.426
88,20/03/2021 23:15:52,PC_1,100,99,45,n,5,14,threatening,LSF,no-normalization,wesp 16_LSF_unnorm,/mask051.png,s,True,432.31,50.083
88,20/03/2021 23:15:52,PC_1,100,99,45,n,5,15,non-threatening,NoFilter,contrast-normalized,salamander 10_FS_norm,/mask059.png,s,False,329.232,50.299
88,20/03/2021 23:15:52,PC_1,100,99,45,n,5,16,threatening,NoFilter,contrast-normalized,wesp 20_FS_norm,/mask083.png,l,False,198.128,50.018
88,20/03/2021 23:15:52,PC_1,100,99,45,n,5,17,threatening,NoFilter,contrast-normalized,slang 21_FS_norm,/mask028.png,s,True,257.181,50.409
88,20/03/2021 23:15:52,PC_1,100,99,45,n,5,18,non-threatening,HSF,contrast-normalized,salamander 26_HSF_norm,/mask017.png,s,False,905.638,50.901
88,20/03/2021 23:15:52,PC_1,100,99,45,n,5,19,threatening,HSF,contrast-normalized,wesp 11_HSF_norm,/mask012.png,l,False,416.294,50.126
88,20/03/2021 23:15:52,PC_1,100,99,45,n,5,20,non-threatening,HSF,no-normalization,salamander 27_HSF_unnorm,/mask078.png,l,True,673.476,50.441
88,20/03/2021 23:15:52,PC_1,100,99,45,n,5,21,threatening,LSF,contrast-normalized,hoornaar 2_LSF_norm,/mask080.png,s,True,562.397,50.366
88,20/03/2021 23:15:52,PC_1,100,99,45,n,5,22,threatening,LSF,no-normalization,slang 15_LSF_unnorm,/mask036.png,s,True,431.309,49.863
88,20/03/2021 23:15:52,PC_1,100,99,45,n,5,23,non-threatening,LSF,contrast-normalized,vlieg 29_LSF_norm,/mask038.png,l,True,456.322,50.134
88,20/03/2021 23:15:52,PC_1,100,99,45,n,5,24,non-threatening,HSF,contrast-normalized,salamander 22_HSF_norm,/mask096.png,s,False,584.417,49.997
88,20/03/2021 23:15:52,PC_1,100,99,45,n,5,25,threatening,NoFilter,contrast-normalized,wesp 27_FS_norm,/mask095.png,l,False,356.234,50.226
88,20/03/2021 23:15:52,PC_1,100,99,45,n,5,26,non-threatening,NoFilter,contrast-normalized,vlieg 12_FS_norm,/mask049.png,l,True,465.315,50.101
88,20/03/2021 23:15:52,PC_1,100,99,45,n,5,27,non-threatening,HSF,contrast-normalized,salamander 2_HSF_norm,/mask056.png,l,True,266.189,50.59
88,20/03/2021 23:15:52,PC_1,100,99,45,n,5,28,threatening,LSF,contrast-normalized,Slang 7_LSF_norm,/mask050.png,s,True,275.194,50.273
88,20/03/2021 23:15:52,PC_1,100,99,45,n,5,29,threatening,NoFilter,contrast-normalized,Slang 22_FS_norm,/mask046.png,s,True,259.188,50.121
88,20/03/2021 23:15:52,PC_1,100,99,45,n,5,30,non-threatening,NoFilter,contrast-normalized,salamander 20_FS_norm,/mask014.png,l,True,235.148,50.249
88,20/03/2021 23:15:52,PC_1,100,99,45,n,5,31,non-threatening,LSF,no-normalization,vlieg 7_LSF_unnorm,/mask040.png,l,True,205.135,50.035
88,20/03/2021 23:15:52,PC_1,100,99,45,n,5,32,non-threatening,NoFilter,contrast-normalized,vlieg 19_FS_norm,/mask041.png,l,True,223.147,50.035
88,20/03/2021 23:15:52,PC_1,100,99,45,n,5,33,threatening,HSF,no-normalization,slang 14_HSF_unnorm,/mask008.png,l,False,266.201,49.612
88,20/03/2021 23:15:52,PC_1,100,99,45,n,5,34,threatening,HSF,no-normalization,Slang 10_HSF_unnorm,/mask091.png,l,False,18.024,49.769
88,20/03/2021 23:15:52,PC_1,100,99,45,n,5,35,threatening,LSF,no-normalization,slang 16_LSF_unnorm,/mask065.png,s,True,284.204,50.485
88,20/03/2021 23:15:52,PC_1,100,99,45,n,5,36,threatening,NoFilter,contrast-normalized,slang 31_FS_norm,/mask001.png,l,False,292.194,50.198
88,20/03/2021 23:15:52,PC_1,100,99,45,n,5,37,non-threatening,HSF,no-normalization,salamander 13_HSF_unnorm,/mask084.png,l,True,164.103,50.199
88,20/03/2021 23:15:52,PC_1,100,99,45,n,5,38,threatening,LSF,contrast-normalized,slang 13_LSF_norm,/mask018.png,s,True,312.208,50.256
88,20/03/2021 23:15:52,PC_1,100,99,45,n,5,39,threatening,HSF,no-normalization,Slang 8_HSF_unnorm,/mask010.png,l,False,398.281,50.215
88,20/03/2021 23:15:52,PC_1,100,99,45,n,5,40,non-threatening,LSF,no-normalization,vlieg 14_LSF_unnorm,/mask097.png,l,True,43.017,50.259
88,20/03/2021 23:15:52,PC_1,100,99,45,n,5,41,threatening,LSF,contrast-normalized,wesp 4_LSF_norm,/mask064.png,l,False,115.082,50.581
88,20/03/2021 23:15:52,PC_1,100,99,45,n,5,42,threatening,LSF,no-normalization,slang 28_LSF_unnorm,/mask066.png,l,False,251.181,50.775
88,20/03/2021 23:15:52,PC_1,100,99,45,n,5,43,threatening,LSF,no-normalization,wesp 14_LSF_unnorm,/mask069.png,l,False,44.031,49.515
88,20/03/2021 23:15:52,PC_1,100,99,45,n,5,44,threatening,HSF,no-normalization,wesp 25_HSF_unnorm,/mask005.png,l,False,125.089,50.078
88,20/03/2021 23:15:52,PC_1,100,99,45,n,5,45,non-threatening,LSF,no-normalization,salamander 5_LSF_unnorm,/mask074.png,l,True,178.84,50.286
88,20/03/2021 23:15:52,PC_1,100,99,45,n,5,46,threatening,HSF,no-normalization,wesp 28_HSF_unnorm,/mask022.png,l,False,884.613,50.213
88,20/03/2021 23:15:52,PC_1,100,99,45,n,5,47,non-threatening,HSF,contrast-normalized,vlieg 30_HSF_norm,/mask026.png,l,True,157.111,50.345
88,20/03/2021 23:15:52,PC_1,100,99,45,n,5,48,threatening,HSF,contrast-normalized,wesp 10_HSF_norm,/mask029.png,l,False,409.302,50.207
88,20/03/2021 23:15:52,PC_1,100,99,45,n,5,49,threatening,HSF,no-normalization,Slang 4_HSF_unnorm,/mask016.png,l,False,652.461,50.053
88,20/03/2021 23:15:52,PC_1,100,99,45,n,5,50,non-threatening,HSF,no-normalization,salamander 25_HSF_unnorm,/mask060.png,l,True,357.257,50.514
88,20/03/2021 23:15:52,PC_1,100,99,45,n,5,51,non-threatening,HSF,contrast-normalized,vlieg 23_HSF_norm,/mask092.png,l,True,362.256,50.474
88,20/03/2021 23:15:52,PC_1,100,99,45,n,5,52,threatening,NoFilter,contrast-normalized,wesp 18_FS_norm,/mask037.png,l,False,63.049,50.427
88,20/03/2021 23:15:52,PC_1,100,99,45,n,5,53,threatening,HSF,contrast-normalized,Slang 5_HSF_norm,/mask015.png,l,False,248.175,50.251
88,20/03/2021 23:15:52,PC_1,100,99,45,n,5,54,non-threatening,NoFilter,contrast-normalized,salamander 23_FS_norm,/mask009.png,l,True,168.12,50.693
88,20/03/2021 23:15:52,PC_1,100,99,45,n,5,55,non-threatening,HSF,contrast-normalized,vlieg 27_HSF_norm,/mask007.png,l,True,419.296,50.141
88,20/03/2021 23:15:52,PC_1,100,99,45,n,5,56,non-threatening,HSF,no-normalization,salamander 1_HSF_unnorm,/mask057.png,l,True,270.178,50.082
88,20/03/2021 23:15:52,PC_1,100,99,45,n,5,57,non-threatening,LSF,contrast-normalized,vlieg 31_LSF_norm,/mask093.png,l,True,288.191,50.683
88,20/03/2021 23:15:52,PC_1,100,99,45,n,5,58,threatening,LSF,contrast-normalized,Slang 25_LSF_norm,/mask021.png,s,True,239.173,50.615
88,20/03/2021 23:15:52,PC_1,100,99,45,n,5,59,non-threatening,HSF,contrast-normalized,salamander 17_HSF_norm,/mask020.png,l,True,415.305,50.151
